{ Units, Wavelength Units } SI Microns
{ Thickness } 3.175
{ Conductivity } 0.8082369
{ IR Transmittance } TIR=0
{ Emissivity, front back } Emis= 0.84 0.86
{ }
{ Ef_Source: Text File }
{ Eb_Source: Text File }
{ IGDB_Checksum: -1339960571 }
{ Product Name: 8 Mil Stainless Steel 20 }
{ Manufacturer: Saint-Gobain Solar Gard LLC }
{ NFRC ID: 229 }
{ Type: Applied Film }
{ Material: N/A }
{ Coating Name: Armorcoat® 8 Mil Stainless Steel 20 }
{ Coated Side: Back }
{ Substrate Filename: WW3mm.BSF }
{ Appearance: Silver }
{ Acceptance: # }
{ Uses:  }
{ Availability:   }
{ Structure:  }
0.300    0.0006    0.0656    0.0550
0.305    0.0007    0.0623    0.0871
0.310    0.0009    0.0580    0.0736
0.315    0.0019    0.0572    0.1045
0.320    0.0030    0.0561    0.1922
0.325    0.0035    0.0537    0.2275
0.330    0.0031    0.0532    0.2138
0.335    0.0039    0.0514    0.2254
0.340    0.0047    0.0515    0.2303
0.345    0.0048    0.0534    0.2439
0.350    0.0088    0.0508    0.2242
0.355    0.0077    0.0491    0.2280
0.360    0.0084    0.0494    0.2410
0.365    0.0089    0.0491    0.2459
0.370    0.0084    0.0494    0.2410
0.375    0.0090    0.0497    0.2246
0.380    0.0148    0.0488    0.2302
0.385    0.0419    0.0551    0.2292
0.390    0.0926    0.0896    0.2380
0.395    0.1509    0.1450    0.2502
0.400    0.1846    0.2110    0.2362
0.405    0.1970    0.2494    0.2270
0.410    0.2109    0.2349    0.2357
0.415    0.2174    0.2516    0.2377
0.420    0.2103    0.2775    0.2384
0.425    0.2111    0.2588    0.2503
0.430    0.2188    0.2469    0.2501
0.435    0.2169    0.2726    0.2330
0.440    0.2121    0.2790    0.2265
0.445    0.2186    0.2544    0.2362
0.450    0.2241    0.2499    0.2419
0.455    0.2192    0.2763    0.2401
0.460    0.2114    0.2857    0.2442
0.465    0.2134    0.2628    0.2516
0.470    0.2198    0.2497    0.2490
0.475    0.2204    0.2693    0.2376
0.480    0.2146    0.2890    0.2269
0.485    0.2135    0.2786    0.2314
0.490    0.2204    0.2562    0.2415
0.495    0.2234    0.2537    0.2460
0.500    0.2194    0.2775    0.2453
0.505    0.2112    0.2929    0.2435
0.510    0.2097    0.2835    0.2445
0.515    0.2134    0.2614    0.2509
0.520    0.2212    0.2521    0.2470
0.525    0.2215    0.2691    0.2359
0.530    0.2161    0.2884    0.2283
0.535    0.2144    0.2924    0.2262
0.540    0.2124    0.2775    0.2355
0.545    0.2211    0.2586    0.2450
0.550    0.2219    0.2527    0.2509
0.555    0.2183    0.2733    0.2475
0.560    0.2175    0.2838    0.2472
0.565    0.2053    0.2950    0.2417
0.570    0.2069    0.2919    0.2403
0.575    0.2170    0.2635    0.2484
0.580    0.2177    0.2494    0.2472
0.585    0.2162    0.2589    0.2365
0.590    0.2198    0.2754    0.2316
0.595    0.2207    0.2845    0.2321
0.600    0.2159    0.2866    0.2322
0.605    0.2102    0.2831    0.2319
0.610    0.2095    0.2758    0.2333
0.615    0.2130    0.2665    0.2374
0.620    0.2181    0.2635    0.2418
0.625    0.2207    0.2718    0.2442
0.630    0.2200    0.2845    0.2437
0.635    0.2165    0.2960    0.2411
0.640    0.2143    0.3001    0.2390
0.645    0.2135    0.2938    0.2376
0.650    0.2155    0.2815    0.2371
0.655    0.2200    0.2677    0.2372
0.660    0.2228    0.2593    0.2350
0.665    0.2239    0.2602    0.2311
0.670    0.2223    0.2694    0.2265
0.675    0.2183    0.2806    0.2201
0.680    0.2138    0.2909    0.2181
0.685    0.2117    0.2933    0.2243
0.690    0.2122    0.2848    0.2369
0.695    0.2158    0.2750    0.2502
0.700    0.2195    0.2660    0.2542
0.705    0.2195    0.2638    0.2431
0.710    0.2169    0.2614    0.2380
0.715    0.2187    0.2531    0.2513
0.720    0.2238    0.2518    0.2684
0.725    0.2245    0.2700    0.2566
0.730    0.2141    0.2927    0.2275
0.735    0.2082    0.2946    0.2291
0.740    0.2132    0.2857    0.2496
0.745    0.2149    0.2873    0.2391
0.750    0.2092    0.2921    0.2157
0.755    0.2119    0.2712    0.2340
0.760    0.2251    0.2574    0.2534
0.765    0.2247    0.2579    0.2283
0.770    0.2200    0.2511    0.2233
0.775    0.2311    0.2452    0.2543
0.780    0.2329    0.2610    0.2375
0.785    0.2179    0.2759    0.2117
0.790    0.2238    0.2679    0.2532
0.795    0.2264    0.2940    0.2273
0.800    0.2157    0.2971    0.2355
0.810    0.2165    0.2969    0.2428
0.820    0.2169    0.2833    0.2484
0.830    0.2200    0.2680    0.2550
0.840    0.2238    0.2630    0.2565
0.850    0.2231    0.2687    0.2503
0.860    0.2201    0.2819    0.2408
0.870    0.2172    0.2921    0.2327
0.880    0.2154    0.2968    0.2286
0.890    0.2182    0.2898    0.2271
0.900    0.2220    0.2752    0.2267
0.910    0.2275    0.2597    0.2297
0.920    0.2320    0.2515    0.2339
0.930    0.2337    0.2538    0.2366
0.940    0.2305    0.2660    0.2367
0.950    0.2246    0.2814    0.2347
0.960    0.2168    0.2931    0.2303
0.970    0.2145    0.2943    0.2322
0.980    0.2191    0.2886    0.2412
0.990    0.2278    0.2802    0.2464
1.000    0.2303    0.2768    0.2371
1.010    0.2201    0.2640    0.2292
1.020    0.2149    0.2386    0.2547
1.030    0.2349    0.2353    0.2795
1.040    0.2475    0.2680    0.2404
1.050    0.2242    0.2825    0.2032
1.060    0.2124    0.2656    0.2434
1.070    0.2336    0.2802    0.2564
1.080    0.2315    0.3109    0.1902
1.090    0.2081    0.2890    0.2054
1.100    0.2272    0.2685    0.2576
1.110    0.2382    0.2891    0.1973
1.120    0.2142    0.2607    0.2090
1.130    0.2355    0.2324    0.2705
1.140    0.2433    0.2640    0.1936
1.150    0.2207    0.2300    0.2453
1.160    0.2536    0.2432    0.2611
1.170    0.2257    0.2630    0.1846
1.180    0.2324    0.2362    0.2953
1.190    0.2401    0.2968    0.1777
1.200    0.2106    0.2504    0.2750
1.210    0.2442    0.3080    0.2045
1.220    0.2023    0.2714    0.2434
1.230    0.2430    0.3017    0.2320
1.240    0.2010    0.2791    0.2215
1.250    0.2436    0.2845    0.2502
1.260    0.2055    0.2711    0.2190
1.270    0.2490    0.2686    0.2552
1.280    0.2104    0.2519    0.2309
1.290    0.2569    0.2593    0.2458
1.300    0.2145    0.2312    0.2494
1.310    0.2606    0.2607    0.2228
1.320    0.2180    0.2186    0.2737
1.330    0.2569    0.2711    0.1917
1.340    0.2261    0.2231    0.2883
1.350    0.2413    0.2756    0.1766
1.360    0.2367    0.2442    0.2655
1.370    0.2252    0.2726    0.1858
1.380    0.2421    0.2732    0.2254
1.390    0.2137    0.2608    0.2218
1.400    0.2373    0.2941    0.1832
1.410    0.2181    0.2562    0.2505
1.420    0.2242    0.2893    0.1711
1.430    0.2341    0.2715    0.2336
1.440    0.2145    0.2643    0.2151
1.450    0.2393    0.2860    0.1848
1.460    0.2279    0.2463    0.2579
1.470    0.2272    0.2671    0.1967
1.480    0.2465    0.2592    0.2227
1.490    0.2246    0.2302    0.2552
1.500    0.2413    0.2607    0.1868
1.510    0.2482    0.2361    0.2525
1.520    0.2283    0.2247    0.2500
1.530    0.2475    0.2563    0.1926
1.540    0.2480    0.2313    0.2638
1.550    0.2280    0.2268    0.2482
1.560    0.2474    0.2631    0.1944
1.570    0.2453    0.2412    0.2598
1.580    0.2239    0.2362    0.2532
1.590    0.2397    0.2740    0.1934
1.600    0.2429    0.2631    0.2430
1.610    0.2197    0.2446    0.2626
1.620    0.2272    0.2760    0.1998
1.630    0.2348    0.2785    0.2134
1.640    0.2110    0.2392    0.2634
1.650    0.1940    0.2284    0.2155
1.660    0.1874    0.2151    0.1833
1.670    0.1995    0.2188    0.2394
1.680    0.1941    0.2258    0.2442
1.690    0.2088    0.2559    0.1983
1.700    0.2179    0.2549    0.2071
1.710    0.2081    0.2277    0.2525
1.720    0.2051    0.2339    0.2330
1.730    0.2154    0.2503    0.1964
1.740    0.2263    0.2444    0.2217
1.750    0.2167    0.2223    0.2555
1.760    0.2172    0.2302    0.2317
1.770    0.2278    0.2453    0.2017
1.780    0.2368    0.2361    0.2271
1.790    0.2257    0.2133    0.2559
1.800    0.2243    0.2165    0.2358
1.810    0.2329    0.2314    0.2081
1.820    0.2396    0.2271    0.2208
1.830    0.2321    0.2095    0.2449
1.840    0.2302    0.2117    0.2363
1.850    0.2365    0.2275    0.2119
1.860    0.2424    0.2319    0.2117
1.870    0.2386    0.2203    0.2309
1.880    0.2302    0.2147    0.2369
1.890    0.2275    0.2231    0.2151
1.900    0.2284    0.2293    0.2035
1.910    0.2280    0.2244    0.2142
1.920    0.2231    0.2208    0.2290
1.930    0.2193    0.2277    0.2196
1.940    0.2205    0.2406    0.1992
1.950    0.2248    0.2433    0.1943
1.960    0.2252    0.2379    0.2119
1.970    0.2208    0.2371    0.2225
1.980    0.2187    0.2448    0.2099
1.990    0.2216    0.2561    0.1924
2.000    0.2281    0.2587    0.1914
2.010    0.2256    0.2499    0.2055
2.020    0.2189    0.2418    0.2139
2.030    0.2149    0.2444    0.2047
2.040    0.2162    0.2513    0.1906
2.050    0.2225    0.2527    0.1886
2.060    0.2203    0.2420    0.2003
2.070    0.2123    0.2300    0.2134
2.080    0.2058    0.2255    0.2101
2.090    0.2057    0.2291    0.1927
2.100    0.2099    0.2284    0.1837
2.110    0.2053    0.2109    0.1900
2.120    0.1871    0.1809    0.2061
2.130    0.1740    0.1630    0.2123
2.140    0.1753    0.1680    0.2011
2.150    0.1827    0.1778    0.1860
2.160    0.1952    0.1837    0.1845
2.170    0.2019    0.1836    0.2099
2.180    0.1961    0.1755    0.2348
2.190    0.1937    0.1769    0.2375
2.200    0.1969    0.1868    0.2189
2.210    0.2008    0.1925    0.1948
2.220    0.1978    0.1811    0.1867
2.230    0.1846    0.1549    0.2023
2.240    0.1642    0.1289    0.2271
2.250    0.1475    0.1163    0.2382
2.260    0.1382    0.1132    0.2237
2.270    0.1416    0.1189    0.1946
2.280    0.1519    0.1258    0.1780
2.290    0.1499    0.1175    0.1949
2.300    0.1440    0.1054    0.2289
2.310    0.1347    0.0986    0.2537
2.320    0.1248    0.0950    0.2461
2.330    0.1176    0.0950    0.2055
2.340    0.1258    0.1060    0.1645
2.350    0.1402    0.1060    0.1542
2.360    0.1459    0.1154    0.1791
2.370    0.1434    0.1098    0.2197
2.380    0.1373    0.1045    0.2498
2.390    0.1304    0.1037    0.2479
2.400    0.1306    0.1037    0.2154
2.410    0.1378    0.1243    0.1756
2.420    0.1395    0.1241    0.1524
2.430    0.1291    0.1105    0.1618
2.440    0.1058    0.0882    0.1929
2.450    0.0996    0.0804    0.2259
2.460    0.1151    0.0965    0.2478
2.470    0.1281    0.1166    0.2359
2.480    0.1351    0.1324    0.1987
2.490    0.1489    0.1526    0.1654
2.500    0.1569    0.1543    0.1511

